Folder: quality-made/src/python/scripts/data

Note: README.rst
===========
QualityMade
===========

Welcome to the Quality Made GitHub repo! This is meant to provide a place for
the participants in the Navy Quality Made team to share their code.


Description
===========

First, a quick tour of the structure of this repository, in what is (perhaps
a vain) hope to maintain some order and make sure others can find and reuse
your work.


Best Practices
--------------

**Please document your work using the native mechanism for your programming
language of choice.** For example, Python docstrings on all functions, classes,
and modules; or Matlab help text (comment lines) after function, class
definitions, class properties, etc.

**Code goes in src/.** :literal:`src` is divided by language to make it easier
for people familiar with one language or another. If your language isn't there,
e.g. ruby or scala, please add it! Within each language folder is a folder for
common tasks:

* classification

* clustering

* regression

* scripts

* visualization

:literal:`scripts` is a place to put more fully developed scripts or jupyter
notebooks. Since these will often read in data, please place that data in the
:literal:`scripts/data` folder, so others have the data upon which your script
depends.

While there is no :literal:`scratch` or :literal:`misc`, since they
too often become the catch-all, there may be very legitimate reasons for such
folders. However, please help your fellow developers by putting your
functions/modules in the most appropriate folder. If there is another
classification that better describes your code--please add it.


Closing Remarks
===============

Thank you all for contributing! If you add something to this repo, please add
your name to the :literal:`AUTHORS.rst`. Not only do you get credit for your
hard work, but we also know who to contact with questions, comments, praise
and adulation.


Note
====

This project has been set up using PyScaffold 3.0.3. For details and usage
information on PyScaffold see http://pyscaffold.org/.

File: NewSingleBeads.csv
Parent Sample Name,Summary: Ending O2 ppm,Summary: Laser Power (W),Summary: Measured Pre-Time,Summary: Measured Weld Time,Summary: Robot Travel Speed (mm/s),Summary: Starting O2 ppm,Summary: Total Length,Summary: Wire Feed Speed (mm/s),Summary: Wire Power (kW),Pre-Weld Data: PreTime Recorded (s),Weld Ignition Stage Data: Laser Pre-Time (s),Weld Ignition Stage Data: Wire Power (kW),Weld Fill Stage Data: Fill Time (s),Weld Fill Stage Data: Heat Wirefeed Speed (mm/s),Weld End Stage Data: Heat Wirefeed Speed (mm/s),Post-Weld Data: Laser Off Delay (s),Power / Velocity,Bead width (mm),Fusion zone area (mm^2),Fusion zone width (mm),Fusion zone depth (mm),Fusion zone depth at 50% fusion zone width (mm),Fusion zone depth at 75% fusion zone width (mm),Beta grain length // build (microns),Beta grain length perp. build (microns),Alpha lath thickness (microns),Hardness (HV),"Bead quality (1-intermittent, 2-variable, 3-rippled, 4-smooth)"
N00014-001-008,42,6000,2.077,19.106,15,41,195.7,40,0.3,2.08,0.4,0.3,0.25,59.25,59.25,0.25,420,7.18,6.326,7.403,1.272,0.585,0.4015,145.9584,511.2955,NA,NA,1
N00014-001-010,35,6000,2.079,13.263,15,35,105.9,45,0.3,2.08,0.4,0.3,0.25,59.25,59.25,0.25,420,9.066,18.159,9.32,2.725,0.8705,0.547,234.4912,338.658,1.38222,NA,1
N00014-001-011,35,6000,2.077,11.408,15,35,105.9,50,0.3,2.08,0.4,0.3,0.25,59.25,59.25,0.25,420,7.447,10.737,7.596,2.209,0.477,0.6465,275.684,324.2214,1.275,370,1
N00014-001-012,34,6000,2.081,13.501,15,34,105.9,55,0.3,2.08,0.4,0.3,0.25,59.25,59.25,0.25,420,7.34,12.277,7.565,2.491,0.737,0.5295,294.074,854.164,1.20389,NA,4
N00014-001-013,33,6000,2.077,13.683,15,33,105.9,70,0.3,2.08,0.4,0.3,0.25,59.25,59.25,0.25,420,7.2,12.192,7.417,2.496,0.534,0.391,258.033,786.4925,1.33867,NA,4
N00014-001-014,33,6000,2.073,14.211,15,33,105.9,62.5,0.3,2.07,0.4,0.3,0.25,59.25,59.25,0.25,420,8.5,12.439,7.703,2.516,0.7335,0.5025,174.81,559.417,1.34178,NA,3
N00014-001-015,32,6000,2.081,13.436,15,32,105.9,59,0.3,2.08,0.4,0.3,0.25,59.25,59.25,0.25,420,7.5,12.154,7.59,2.496,0.657,0.4995,181.52,430.0895,1.39678,NA,3
N00014-001-016,32,6000,2.077,37.582,3.5,32,105.9,70,0.3,2.08,0.4,0.3,0.25,59.25,59.25,0.25,1800,10.3,55.631,10.445,7,1.015,0.8205,491.769,1544.797,1.51744,NA,3
N00014-001-017,31,6000,2.074,62.531,3.5,31,105.9,85,0.3,2.07,0.4,0.3,0.25,59.25,59.25,0.25,1800,10.67,53.827,10.759,6.56,1.2775,0.9735,602.548,1135.16,1.39233,NA,4
N00014-001-018,31,6000,2.085,42.961,3.5,31,105.9,80,0.3,2.08,0.4,0.3,0.25,59.25,59.25,0.25,1800,10.309,58.543,10.529,7.115,1.2005,0.844,584.225,1100.196,1.56211,NA,4
N00014-001-019,31,6000,2.077,46.437,3.5,31,105.9,75,0.3,2.08,0.4,0.3,0.25,59.25,59.25,0.25,1800,10.23,55.536,10.399,6.958,1.2725,0.923,550.798,943.894,1.51556,NA,3
N00014-001-020,37,6000,24.168,57.732,3.5,36,105.9,72,0.3,24.17,0.4,0.3,0.25,59.25,59.25,0.25,1800,10.74,53.54,10.908,6.486,1.175,0.9025,573.882,1258.984,1.50133,NA,3
N00014-001-029,126,6000,1.343,74.908,3,82,113.55,55,0.3,1.34,0.4,0.3,0.25,10,10,0.25,2100,8.44,44.479,8.55,6.474,1.1335,0.856,575.8752,1025.526,1.51844,349,4
N00014-001-030,75,6000,3.057,63.074,2,79,113.55,55,0.3,3.06,0.4,0.3,0.25,10,10,0.25,3150,10.143,64.915,9.275,7.912,1.276,0.939,650.096,1240.54,NA,340,4
N00014-001-009,35,6000,2.074,57.251,15,35,192.38,40,0.3,2.07,0.4,0.3,0.25,59.25,59.25,0.25,420,8.99,14.906,8.967,2.391,0.6545,0.4485,147.387,426.33,1.11589,NA,1
N00014-001-021,35,3000,1.332,38.902,3.5,35,110.59,35,0.3,1.33,0.4,0.3,0.25,59.25,59.25,0.25,942.857,7.18,26.727,7.134,4.852,1.0615,0.7485,445.851,572.45,1.03,NA,3
N00014-001-022,33,3000,1.336,39.527,3.5,33,110.59,45,0.3,1.34,0.4,0.3,0.25,59.25,59.25,0.25,942.857,6.64,30.663,6.736,5.468,0.9465,0.7225,435.133,2372.093,1.44767,NA,3
N00014-001-023,29,3000,11.076,36.843,3.5,29,110.59,50,0.3,11.08,0.4,0.3,0.25,59.25,59.25,0.25,942.857,6.735,33.358,6.593,5.822,0.867,0.65,412.815,1630.3,1.33833,NA,3
N00014-001-027,29,3000,1.343,12.876,15,29,110.59,30,0.3,1.34,0.4,0.3,0.25,10,10,0.25,220,4.69,5.486,4.711,1.705,0.3545,0.2555,103.887,409.036,1.08489,NA,3
N00014-001-028,29,3000,1.343,14.223,15,28,110.59,35,0.3,1.34,0.4,0.3,0.25,10,10,0.25,220,5.029,5.445,4.996,1.67,0.3095,0.2135,147.0784,338.357,1.258,NA,3
N00014-001-001,79,3000,2.077,62.538,3.5,80,195.7,15,0,2.08,0.4,0.3,0.25,59.25,59.25,0.25,857.143,7.163,15.019,7.198,2.865,1.028,0.7425,292.01,825.5915,1.21456,365,2
N00014-001-002,74,6000,2.073,19.521,15,75,195.7,90,0.6,2.07,0.4,0.3,0.25,59.25,59.25,0.25,440,7.407,16.045,7.353,3.088,0.6775,0.5605,205.346,857.1715,1.29089,371,4
N00014-001-003,56,6000,2.077,60.389,3.5,58,195.7,35,0.3,2.08,0.4,0.3,0.25,59.25,59.25,0.25,1800,NA,37.659,11.813,4.247,2.1235,1.914,431.242,1087.894,1.40733,NA,3
N00014-001-004,50,6000,4.811,68.275,3.5,52,195.7,45,0.3,4.81,0.4,0.3,0.25,59.25,59.25,0.25,1800,NA,45.069,13.248,4.71,1.9885,1.5345,406.341,1166.43,NA,NA,3
N00014-001-005,65,6000,2.08,60.607,3.5,68,195.7,55,0.3,2.08,0.4,0.3,0.25,59.25,59.25,0.25,1800,11.452,48.42,11.564,5.905,1.6075,1.1405,460.839,1296.09,1.27367,NA,4
N00014-001-007,49,6000,2.078,19.544,15,50,195.7,30,0.3,2.08,0.4,0.3,0.25,59.25,59.25,0.25,420,8.772,12.452,8.882,2.104,0.7175,0.48,204.603,280.9116,1.24311,NA,1
N00014-001-075,79,6000,1.345,186.918,6.67,49,103.32,59,0,1.34,0.2,0.1,0.15,10,30,0.1,899.55,11.9,37.692,11.925,4.18,1.4455,1.043,376.8,927,NA,358,2
N00014-001-076,58,6000,107.46,19.729,6.58,61,103.32,59.25,0.3,107.46,0.2,0.1,0.15,10,30,0.1,957.447,7.81,25.642,7.966,4.531,1.0875,0.7985,337.944,1424.4,NA,363,4
N00014-001-077,50,3000,17.007,35.091,3.5,52,103.32,59.25,0.9,17.01,0.2,0.1,0.15,10,30,0.1,1114.29,6.13,38.461,5.858,7.76,0.808,0.802,514.909,1131.27,NA,358,3
N00014-001-078,48,3000,1.339,33.555,3.5,49,103.32,65,0.9,1.34,0.2,0.1,0.15,10,30,0.1,1114.29,6.89,43.613,6.742,7.597,1.2775,0.9675,635.524,1077.27,NA,350,3
N00014-001-079,46,3000,11.712,34.212,3.5,48,103.32,70,0.9,11.71,0.2,0.1,0.15,10,30,0.1,1114.29,6.94,47.582,6.869,8.245,1.435,1.0255,618.636,1086.17,NA,NA,3
N00014-001-080,43,3000,18.051,33.531,3.5,45,103.32,75,0.9,18.05,0.2,0.1,0.15,10,30,0.1,1114.29,7.64,53.941,6.979,8.816,2.041,1.42,737.2,778.933,NA,NA,4
N00014-001-081,42,3000,17.648,34.216,3.5,43,103.32,80,0.9,17.65,0.2,0.1,0.15,10,30,0.1,1114.29,7.93,54.11,6.98,8.554,1.585,1.1175,449.543,728,NA,NA,4
N00014-001-082,41,3000,16.714,34.271,3.5,42,103.32,85,0.9,16.71,0.2,0.1,0.15,10,30,0.1,1114.29,8.27,52.02,5.996,8.255,1.166,0.835,695.478,1170.4,NA,345,4
N00014-001-083,40,3000,7.67,72.252,3.5,41,103.32,90,0.9,7.67,0.2,0.1,0.15,10,30,0.1,1114.29,7.96,48.675,6.03,7.97,0.786,0.5565,1050,1199.17,NA,NA,3
N00014-001-084,42,3000,8.975,10.908,15,42,103.32,55,0.9,8.98,0.2,0.1,0.15,10,30,0.1,260,5.59,26.809,5.111,2.722,0.578,0.426,232.6875,2045,NA,NA,3
N00014-001-085,42,3000,8.076,10.876,15,42,103.32,50,0.9,8.08,0.2,0.1,0.15,10,30,0.1,260,4.97,29.347,5.325,2.364,0.5855,0.412,193.55,1114,NA,374,3
N00014-001-086,41,3000,7.699,10.89,15,41,103.32,45,0.9,7.7,0.2,0.1,0.15,10,30,0.1,260,5.08,8.115,5.061,2.306,1.153,0.5765,181.842,330.8,NA,NA,3
N00014-001-087,112,6000,10.727,94.183,3.5,74,115.36,90,0.9,10.73,0.2,0.1,0.15,10,30,0.1,1971.43,10.86,71.785,11.322,8.502,2.2585,1.5605,545.533,1057.38,NA,NA,3
N00014-001-088,56,6000,9.576,37.705,3.5,58,115.36,95,0.9,9.58,0.2,0.1,0.15,10,30,0.1,1971.43,11.08,76.633,10.014,9.601,2.4195,1.7225,514.353,787.111,NA,NA,3
N00014-001-089,52,6000,3.743,63.221,3.5,53,115.36,100,0.9,3.74,0.2,0.1,0.15,10,30,0.1,1971.43,12.04,62.301,10.463,7.359,2.5015,1.837,444.15,505.833,NA,350,2
N00014-001-090,48,6000,8.434,36.981,3.5,49,115.36,100,0.9,8.43,0.2,0.1,0.15,10,30,0.1,1971.43,10.34,82.188,10.477,9.923,2.686,1.8925,502.556,626.25,NA,NA,4
N00014-001-091,45,6000,6.565,36.979,3.5,46,115.36,110,0.9,6.57,0.2,0.1,0.15,10,30,0.1,1971.43,10.61,85.563,10.041,10.14,2.5735,1.767,505,547.75,NA,NA,4
N00014-001-092,43,6000,6.253,37.275,3.5,44,115.36,120,0.9,6.25,0.2,0.1,0.15,10,30,0.1,1971.43,10.75,89.325,9.928,10.473,2.4055,1.687,685.793,658.308,NA,NA,4
N00014-001-093,41,6000,6.725,37.356,3.5,43,115.36,130,0.9,6.72,0.2,0.1,0.15,10,30,0.1,1971.43,11.27,92.056,9.629,10.471,2.1655,1.513,633.588,703.68,NA,NA,4
N00014-001-094,50,6000,8.326,11.689,15,48,115.36,50,0.9,8.33,0.2,0.1,0.15,10,30,0.1,460,8.05,11.952,7.736,2.455,0.851,0.552,185.091,493,NA,NA,2
N00014-001-095,50,6000,1.333,18.265,15,49,115.36,60,0.9,1.33,0.2,0.1,0.15,10,30,0.1,460,9.95,16.092,8.042,2.815,1.159,0.847,206.259,330,NA,379,1
N00014-001-096,47,6000,7.931,13.07,15,48,115.36,70,0.9,7.93,0.2,0.1,0.15,10,30,0.1,460,6.78,14.951,7.428,3.182,0.8,0.539,223.351,580.25,NA,NA,3
N00014-001-097,44,6000,5.017,13.187,15,45,115.36,80,0.9,5.02,0.2,0.1,0.15,10,30,0.1,460,6.99,17.018,7.38,3.376,0.9745,0.663,213.682,557.556,NA,NA,3
N00014-001-098,42,6000,5.558,13.172,15,43,115.36,90,0.9,5.56,0.2,0.1,0.15,10,30,0.1,460,7.08,19.21,7.245,3.912,1.0675,0.7685,232.333,524,NA,NA,3
N00014-001-099,41,6000,5.859,13.154,15,41,115.36,100,0.9,5.86,0.2,0.1,0.15,10,30,0.1,460,6.63,18.752,6.977,3.902,0.8265,0.59,245,555.4,NA,NA,4